condLoaderLoop.thisRepN,condLoaderLoop.thisTrialN,condLoaderLoop.thisN,condLoaderLoop.thisIndex,Block1Loop.thisRepN,Block1Loop.thisTrialN,Block1Loop.thisN,Block1Loop.thisIndex,encodeLoop_Block1Run1.thisRepN,encodeLoop_Block1Run1.thisTrialN,encodeLoop_Block1Run1.thisN,encodeLoop_Block1Run1.thisIndex,recognitionLoop_Block1Run1.thisRepN,recognitionLoop_Block1Run1.thisTrialN,recognitionLoop_Block1Run1.thisN,recognitionLoop_Block1Run1.thisIndex,triggerSyncText.started,triggerSync_Key_Resp.started,triggerSync_Key_Resp.keys,triggerSync_Key_Resp.rt,start_time,start_volume,InstructionText.started,trigger_time,end_volume,image_file,run,encodeTrialRun1_Image.started,encodeTrialTestKeyRespRun1.started,encodeFixationText_Run1.started,encodeTrialRun1_Image.stopped,encodeTrialTestKeyRespRun1.stopped,encodeFixationText_Run1.stopped,end_time,image_gender,response_gender,gender_is_correct,encodeTrialTestKeyRespRun1.keys,recogTrialRun1_Image.started,recogTrialTestKeyRespRun1.started,recogFixationText_Run1.started,recogTrialRun1_Image.stopped,recogTrialTestKeyRespRun1.stopped,recogFixationText_Run1.stopped,image_old_new,response_old_new,is_correct,recogTrialTestKeyRespRun1.keys,image_water,response_water,liquid_is_correct,InstructionText.stopped,response_pair_fit,participant,session,date,expName,psychopyVersion,frameRate,
,,,,,,,,,,,,,,,,6.468305500020506,6.468305500020506,5,2.566916332987603,,,,,,,,,,,,,,,,,,,,,,,,,,,,,,,,,,973415,001,2023-07-13_11h06.23.371,PsychoPy-Practice-Task,2022.2.5,59.97056919812276,
,,,,0,0,0,0,0,0,0,0,,,,,,,,,1.420799526385963e-05,2,9.079143292008666,2.4579931050539017e-06,1,Block1_run1_face_encoding-TEST/yf10_macieklew_w_hills16_OLD.bmp,1,19.12826816699817,19.12826816699817,20.075517209013924,20.14241108400165,21.142352709022816,22.08704716700595,13.00013695799862,female,none,NO RESPONSE,None,,,,,,,,,,,,,,,,973415,001,2023-07-13_11h06.23.371,PsychoPy-Practice-Task,2022.2.5,59.97056919812276,
,,,,0,0,0,0,1,0,1,0,,,,,,,,,,2,,,,Block1_run1_face_encoding-TEST/yf1_macieklew_w_hills16_OLD.bmp,1,22.08704716700595,22.08704716700595,23.076187917002244,23.093025209003827,24.09314737500972,25.08257300002151,15.999398124986328,female,none,NO RESPONSE,None,,,,,,,,,,,,,,,,973415,001,2023-07-13_11h06.23.371,PsychoPy-Practice-Task,2022.2.5,59.97056919812276,
,,,,0,0,0,0,2,0,2,0,,,,,,,,,,2,,,,Block1_run1_face_encoding-TEST/of3_macieklew_w_hills16_OLD.bmp,1,25.08257300002151,25.08257300002151,26.073712167009944,26.0913443340105,27.094345959019847,28.077777124999557,18.998310374998255,female,none,NO RESPONSE,None,,,,,,,,,,,,,,,,973415,001,2023-07-13_11h06.23.371,PsychoPy-Practice-Task,2022.2.5,59.97056919812276,
,,,,0,0,0,0,3,0,3,0,,,,,,,,,,2,,,,Block1_run1_face_encoding-TEST/of22_macieklew_w_hills16_OLD.bmp,1,28.077777124999557,28.077777124999557,29.0757452090038,29.091432417015312,30.077700834022835,31.08166275001713,21.99845225000172,female,none,NO RESPONSE,None,,,,,,,,,,,,,,,,973415,001,2023-07-13_11h06.23.371,PsychoPy-Practice-Task,2022.2.5,59.97056919812276,
,,,,0,0,0,0,4,0,4,0,,,,,,,,,,2,,,,Block1_run1_face_encoding-TEST/ym1_macieklew_w_hills16_OLD.bmp,1,31.08166275001713,31.08166275001713,32.07330750001711,32.0897806250141,33.09408054201049,34.07645395901636,24.997771541005932,male,none,NO RESPONSE,None,,,,,,,,,,,,,,,,973415,001,2023-07-13_11h06.23.371,PsychoPy-Practice-Task,2022.2.5,59.97056919812276,
,,,,0,0,0,0,5,0,5,0,,,,,,,,,,2,,,,Block1_run1_face_encoding-TEST/yf18_macieklew_w_hills16_OLD.bmp,1,34.07645395901636,34.07645395901636,35.057985542021925,35.09344725002302,36.07784654200077,37.05983750001178,27.98141883299104,female,none,NO RESPONSE,None,,,,,,,,,,,,,,,,973415,001,2023-07-13_11h06.23.371,PsychoPy-Practice-Task,2022.2.5,59.97056919812276,
,,,,0,0,0,0,6,0,6,0,,,,,,,,,,2,,,,Block1_run1_face_encoding-TEST/of29_macieklew_w_hills16_OLD.bmp,1,37.08111450000433,37.08111450000433,38.07465616700938,38.090119417000096,39.094238042016514,40.08805583399953,31.00066112499917,female,none,NO RESPONSE,None,,,,,,,,,,,,,,,,973415,001,2023-07-13_11h06.23.371,PsychoPy-Practice-Task,2022.2.5,59.97056919812276,
,,,,0,0,0,0,7,0,7,0,,,,,,,,,,2,,,,Block1_run1_face_encoding-TEST/om30_macieklew_w_hills16_OLD.bmp,1,40.08805583399953,40.08805583399953,41.07523366701207,41.09163254199666,42.0913740840042,43.08361433399841,33.998715583002195,male,none,NO RESPONSE,None,,,,,,,,,,,,,,,,973415,001,2023-07-13_11h06.23.371,PsychoPy-Practice-Task,2022.2.5,59.97056919812276,
,,,,0,0,0,0,8,0,8,0,,,,,,,,,,2,,,,Block1_run1_face_encoding-TEST/of40_macieklew_w_hills16_OLD.bmp,1,43.08361433399841,43.08361433399841,44.07619391701883,44.0916706249991,45.0933511670155,46.07936066700495,36.997457707999274,female,none,NO RESPONSE,None,,,,,,,,,,,,,,,,973415,001,2023-07-13_11h06.23.371,PsychoPy-Practice-Task,2022.2.5,59.97056919812276,
,,,,0,0,0,0,9,0,9,0,,,,,,,,,,2,,,,Block1_run1_face_encoding-TEST/ym24_macieklew_w_hills16_OLD.bmp,1,46.07936066700495,46.07936066700495,47.058382792019984,47.094468084018445,48.09230770901195,49.06034795902087,39.98165379097918,male,none,NO RESPONSE,None,,,,,,,,,,,,,,,,973415,001,2023-07-13_11h06.23.371,PsychoPy-Practice-Task,2022.2.5,59.97056919812276,
,,,,0,0,0,0,10,0,10,0,,,,,,,,,,2,,,,Block1_run1_face_encoding-TEST/om8_macieklew_w_hills16_OLD.bmp,1,49.07884366699727,49.07884366699727,50.07533037502435,50.091144125006394,51.09189716700348,52.08660870901076,42.9998278330022,male,none,NO RESPONSE,None,,,,,,,,,,,,,,,,973415,001,2023-07-13_11h06.23.371,PsychoPy-Practice-Task,2022.2.5,59.97056919812276,
,,,,0,0,0,0,11,0,11,0,,,,,,,,,,2,,,,Block1_run1_face_encoding-TEST/yf27_macieklew_w_hills16_OLD.bmp,1,52.08660870901076,52.08660870901076,53.07347312499769,53.09077733400045,54.0944595420151,,46.001164540997706,female,none,NO RESPONSE,None,,,,,,,,,,,,,,,,973415,001,2023-07-13_11h06.23.371,PsychoPy-Practice-Task,2022.2.5,59.97056919812276,
,,,,0,0,0,0,,,,,0,0,0,0,,,,,46.0018457910046,2,55.08625345901237,,,Block1_run1_face_recog-TEST/om8_macieklew_w_hills16_OLD.bmp,1,,,,,,,58.998729707993334,,,,,65.09389679200831,65.09389679200831,66.0728745420056,66.10629858399625,67.1104272500088,68.08670958402217,OLD,NONE,NO RESPONSE,None,,,,,,973415,001,2023-07-13_11h06.23.371,PsychoPy-Practice-Task,2022.2.5,59.97056919812276,
,,,,0,0,0,0,,,,,1,0,1,0,,,,,,2,,,,Block1_run1_face_recog-TEST/yf18_macieklew_w_hills16_OLD.bmp,1,,,,,,,62.00007720798021,,,,,68.08670958402217,68.08670958402217,69.07389708401752,69.09279329201672,70.09261258400511,71.0835601669969,OLD,NONE,NO RESPONSE,None,,,,,,973415,001,2023-07-13_11h06.23.371,PsychoPy-Practice-Task,2022.2.5,59.97056919812276,
,,,,0,0,0,0,,,,,2,0,2,0,,,,,,2,,,,Block1_run1_face_recog-TEST/ym26_macieklew_w_hills16_NEW.bmp,1,,,,,,,65.00378766597714,,,,,71.0835601669969,71.0835601669969,72.07360733402311,72.0918541669962,73.09557666702312,,NEW,NONE,NO RESPONSE,None,,,,,,973415,001,2023-07-13_11h06.23.371,PsychoPy-Practice-Task,2022.2.5,59.97056919812276,
,,,,0,0,0,0,,,,,3,0,3,0,,,,,,2,,,,Block1_run1_face_recog-TEST/ym24_macieklew_w_hills16_OLD.bmp,1,,,,,,,68.0003545829968,,,,,74.0879297920037,74.0879297920037,75.07708383401041,75.09208637502161,76.09339379201992,77.08675625000615,OLD,NONE,NO RESPONSE,None,,,,,,973415,001,2023-07-13_11h06.23.371,PsychoPy-Practice-Task,2022.2.5,59.97056919812276,
,,,,0,0,0,0,,,,,4,0,4,0,,,,,,2,,,,Block1_run1_face_recog-TEST/om28_macieklew_w_hills16_NEW.bmp,1,,,,,,,71.0006174579903,,,,,77.08675625000615,77.08675625000615,78.0750078750134,78.09042370901443,79.09381808401668,80.08465029200306,NEW,NONE,NO RESPONSE,None,,,,,,973415,001,2023-07-13_11h06.23.371,PsychoPy-Practice-Task,2022.2.5,59.97056919812276,
,,,,0,0,0,0,,,,,5,0,5,0,,,,,,2,,,,Block1_run1_face_recog-TEST/ym34_macieklew_w_hills16_NEW.bmp,1,,,,,,,73.99955420798506,,,,,80.08465029200306,80.08465029200306,81.07462204201147,81.09105266700499,82.09343970901682,83.08597250000457,NEW,NONE,NO RESPONSE,None,,,,,,973415,001,2023-07-13_11h06.23.371,PsychoPy-Practice-Task,2022.2.5,59.97056919812276,
,,,,0,0,0,0,,,,,6,0,6,0,,,,,,2,,,,Block1_run1_face_recog-TEST/of22_macieklew_w_hills16_OLD.bmp,1,,,,,,,76.99979633299517,,,,,83.08597250000457,83.08597250000457,84.076140167017,84.09073983400594,85.09396804199787,86.082115584024,OLD,NONE,NO RESPONSE,None,,,,,,973415,001,2023-07-13_11h06.23.371,PsychoPy-Practice-Task,2022.2.5,59.97056919812276,
,,,,0,0,0,0,,,,,7,0,7,0,,,,,,2,,,,Block1_run1_face_recog-TEST/om21_macieklew_w_hills16_NEW.bmp,1,,,,,,,80.00030758298817,,,,,86.082115584024,86.082115584024,87.07501504200627,87.09100125002442,88.09207441701437,89.08387579201371,NEW,NONE,NO RESPONSE,None,,,,,,973415,001,2023-07-13_11h06.23.371,PsychoPy-Practice-Task,2022.2.5,59.97056919812276,
,,,,0,0,0,0,,,,,8,0,8,0,,,,,,2,,,,Block1_run1_face_recog-TEST/of33_macieklew_w_hills16_NEW.bmp,1,,,,,,,82.99995612498606,,,,,89.08387579201371,89.08387579201371,90.07464733399684,90.0911290840013,91.0940275840112,92.08493341700523,NEW,NONE,NO RESPONSE,None,,,,,,973415,001,2023-07-13_11h06.23.371,PsychoPy-Practice-Task,2022.2.5,59.97056919812276,
,,,,0,0,0,0,,,,,9,0,9,0,,,,,,2,,,,Block1_run1_face_recog-TEST/ym32_macieklew_w_hills16_NEW.bmp,1,,,,,,,85.99963570799446,,,,,92.08493341700523,92.08493341700523,93.0749727920047,93.09057341702282,94.09390258401982,,NEW,NONE,NO RESPONSE,None,,,,,,973415,001,2023-07-13_11h06.23.371,PsychoPy-Practice-Task,2022.2.5,59.97056919812276,
,,,,0,0,0,0,,,,,10,0,10,0,,,,,,2,,,,Block1_run1_face_recog-TEST/of3_macieklew_w_hills16_OLD.bmp,1,,,,,,,88.99982962498325,,,,,95.08478029200342,95.08478029200342,96.07583175000036,96.09204170902376,97.09481737500755,,OLD,NONE,NO RESPONSE,None,,,,,,973415,001,2023-07-13_11h06.23.371,PsychoPy-Practice-Task,2022.2.5,59.97056919812276,
,,,,0,0,0,0,,,,,11,0,11,0,,,,,,2,,,,Block1_run1_face_recog-TEST/yf1_macieklew_w_hills16_OLD.bmp,1,,,,,,,91.9998300409934,,,,,98.08467183401808,98.08467183401808,99.07613570900867,99.09213729199837,100.09484216701821,,OLD,NONE,NO RESPONSE,None,,,,,,973415,001,2023-07-13_11h06.23.371,PsychoPy-Practice-Task,2022.2.5,59.97056919812276,
,,,,0,0,0,0,,,,,,,,,,,,,,,,,,,,,,,,,,,,,,,,,,,,,,,,,,,,,,973415,001,2023-07-13_11h06.23.371,PsychoPy-Practice-Task,2022.2.5,59.97056919812276,
,,,,1,0,1,0,0,0,0,0,,,,,,,,,92.00127883299137,2,101.08367491699755,,,Block1_run1_scene_encoding-TEST/yf9_w_beach3_OLD.bmp,1,111.10462745901896,111.10462745901896,112.07273504202021,112.10639995901147,113.10619575000601,114.07399166701362,104.9952859999903,,,,None,,,,,,,,,,,liquid,none,NO RESPONSE,,,973415,001,2023-07-13_11h06.23.371,PsychoPy-Practice-Task,2022.2.5,59.97056919812276,
,,,,1,0,1,0,1,0,1,0,,,,,,,,,,2,,,,Block1_run1_scene_encoding-TEST/yf9_w_hills13_OLD.bmp,1,114.07399166701362,114.07399166701362,115.07266500001424,115.0893498340156,116.07450550000067,117.07346516702091,107.99513399999705,,,,None,,,,,,,,,,,liquid,none,NO RESPONSE,,,973415,001,2023-07-13_11h06.23.371,PsychoPy-Practice-Task,2022.2.5,59.97056919812276,
,,,,1,0,1,0,2,0,2,0,,,,,,,,,,2,,,,Block1_run1_scene_encoding-TEST/yf9_w_hills15_OLD.bmp,1,117.07346516702091,117.07346516702091,118.07284462501411,118.08919229201274,119.07367966702441,120.07361345901154,110.99505633299123,,,,None,,,,,,,,,,,liquid,none,NO RESPONSE,,,973415,001,2023-07-13_11h06.23.371,PsychoPy-Practice-Task,2022.2.5,59.97056919812276,
,,,,1,0,1,0,3,0,3,0,,,,,,,,,,2,,,,Block1_run1_scene_encoding-TEST/yf9_w_beach2_OLD.bmp,1,120.07361345901154,120.07361345901154,121.07239291700535,121.089172625012,122.07353387502371,123.07339283401961,113.9952504579851,,,,None,,,,,,,,,,,liquid,none,NO RESPONSE,,,973415,001,2023-07-13_11h06.23.371,PsychoPy-Practice-Task,2022.2.5,59.97056919812276,
,,,,1,0,1,0,4,0,4,0,,,,,,,,,,2,,,,Block1_run1_scene_encoding-TEST/yf9_ralphunden_hills24_OLD.bmp,1,123.07339283401961,123.07339283401961,124.07254991700756,124.08957612499944,125.07485083400388,126.07316641701618,116.99500624998473,,,,None,,,,,,,,,,,no_liquid,none,NO RESPONSE,,,973415,001,2023-07-13_11h06.23.371,PsychoPy-Practice-Task,2022.2.5,59.97056919812276,
,,,,1,0,1,0,5,0,5,0,,,,,,,,,,2,,,,Block1_run1_scene_encoding-TEST/yf9_mtns17_OLD.bmp,1,126.07316641701618,126.07316641701618,127.072606583999,127.072606583999,128.07368100000895,129.07308712499798,119.9954879579891,,,,None,,,,,,,,,,,no_liquid,none,NO RESPONSE,,,973415,001,2023-07-13_11h06.23.371,PsychoPy-Practice-Task,2022.2.5,59.97056919812276,
,,,,1,0,1,0,6,0,6,0,,,,,,,,,,2,,,,Block1_run1_scene_encoding-TEST/yf9_w_citybeach10_OLD.bmp,1,129.07308712499798,129.07308712499798,130.07294387501315,130.07294387501315,131.07383866701275,132.07339562501875,122.99491737497738,,,,None,,,,,,,,,,,liquid,none,NO RESPONSE,,,973415,001,2023-07-13_11h06.23.371,PsychoPy-Practice-Task,2022.2.5,59.97056919812276,
,,,,1,0,1,0,7,0,7,0,,,,,,,,,,2,,,,Block1_run1_scene_encoding-TEST/yf9_w_city1_OLD.bmp,1,132.07339562501875,132.07339562501875,133.0726685000118,133.0726685000118,134.0737962090061,135.07380720900255,125.99487329099793,,,,None,,,,,,,,,,,liquid,none,NO RESPONSE,,,973415,001,2023-07-13_11h06.23.371,PsychoPy-Practice-Task,2022.2.5,59.97056919812276,
,,,,1,0,1,0,8,0,8,0,,,,,,,,,,2,,,,Block1_run1_scene_encoding-TEST/yf9_street12_OLD.bmp,1,135.07380720900255,135.07380720900255,136.07290550001198,136.07290550001198,137.07335691701155,138.0741159169993,128.99497541598976,,,,None,,,,,,,,,,,no_liquid,none,NO RESPONSE,,,973415,001,2023-07-13_11h06.23.371,PsychoPy-Practice-Task,2022.2.5,59.97056919812276,
,,,,1,0,1,0,9,0,9,0,,,,,,,,,,2,,,,Block1_run1_scene_encoding-TEST/yf9_street11_OLD.bmp,1,138.0741159169993,138.0741159169993,139.07281037501525,139.08931541701895,140.07363925001118,141.0734738750034,131.99521583298338,,,,None,,,,,,,,,,,no_liquid,none,NO RESPONSE,,,973415,001,2023-07-13_11h06.23.371,PsychoPy-Practice-Task,2022.2.5,59.97056919812276,
,,,,1,0,1,0,10,0,10,0,,,,,,,,,,2,,,,Block1_run1_scene_encoding-TEST/yf9_sunset6_OLD.bmp,1,141.0734738750034,141.0734738750034,142.07277212501504,142.07277212501504,143.07380570902023,144.07349616702413,134.99525645800168,,,,None,,,,,,,,,,,no_liquid,none,NO RESPONSE,,,973415,001,2023-07-13_11h06.23.371,PsychoPy-Practice-Task,2022.2.5,59.97056919812276,
,,,,1,0,1,0,11,0,11,0,,,,,,,,,,2,,,,Block1_run1_scene_encoding-TEST/yf9_pizzodisevo_hills19_OLD.bmp,1,144.07349616702413,144.07349616702413,145.07287229201756,145.09001408400945,146.07507691701176,147.07390729201143,137.9950981659931,,,,None,,,,,,,,,,,no_liquid,none,NO RESPONSE,,,973415,001,2023-07-13_11h06.23.371,PsychoPy-Practice-Task,2022.2.5,59.97056919812276,
,,,,1,0,1,0,,,,,0,0,0,0,,,,,137.9953730829875,2,147.07390729201143,,,Block1_run1_scene_recog-TEST/yf9_street13_NEW.bmp,1,,,,,,,150.9953043749847,,,,,157.0738201670174,157.0738201670174,158.07300554201356,158.0894495420216,159.07372712501092,160.07364608399803,NEW,NONE,NO RESPONSE,None,,,,157.0738201670174,,973415,001,2023-07-13_11h06.23.371,PsychoPy-Practice-Task,2022.2.5,59.97056919812276,
,,,,1,0,1,0,,,,,1,0,1,0,,,,,,2,,,,Block1_run1_scene_recog-TEST/yf9_sunset6_OLD.bmp,1,,,,,,,153.9960253329773,,,,,160.07364608399803,160.07364608399803,161.07285387499724,161.07285387499724,162.07406112502213,163.07470374999684,OLD,NONE,NO RESPONSE,None,,,,,,973415,001,2023-07-13_11h06.23.371,PsychoPy-Practice-Task,2022.2.5,59.97056919812276,
,,,,1,0,1,0,,,,,2,0,2,0,,,,,,2,,,,Block1_run1_scene_recog-TEST/yf9_mtns16_NEW.bmp,1,,,,,,,156.99584720798885,,,,,163.07470374999684,163.07470374999684,164.0735398750112,164.08996716700494,165.0744585840148,166.07447804202093,NEW,NONE,NO RESPONSE,None,,,,,,973415,001,2023-07-13_11h06.23.371,PsychoPy-Practice-Task,2022.2.5,59.97056919812276,
,,,,1,0,1,0,,,,,3,0,3,0,,,,,,2,,,,Block1_run1_scene_recog-TEST/yf9_street12_OLD.bmp,1,,,,,,,159.99567258299794,,,,,166.07447804202093,166.07447804202093,167.07330608399934,167.09018749999814,168.0740665839985,169.0745335840038,OLD,NONE,NO RESPONSE,None,,,,,,973415,001,2023-07-13_11h06.23.371,PsychoPy-Practice-Task,2022.2.5,59.97056919812276,
,,,,1,0,1,0,,,,,4,0,4,0,,,,,,2,,,,Block1_run1_scene_recog-TEST/yf9_street11_OLD.bmp,1,,,,,,,162.99413999999524,,,,,169.0745335840038,169.0745335840038,170.0732946670032,170.0903639169992,171.07447233400308,172.0726100000029,OLD,NONE,NO RESPONSE,None,,,,,,973415,001,2023-07-13_11h06.23.371,PsychoPy-Practice-Task,2022.2.5,59.97056919812276,
,,,,1,0,1,0,,,,,5,0,5,0,,,,,,2,,,,Block1_run1_scene_recog-TEST/yf9_pizzodisevo_hills19_OLD.bmp,1,,,,,,,166.01583283298532,,,,,172.0726100000029,172.0726100000029,173.07883245902485,173.07883245902485,174.07586662500398,,OLD,NONE,NO RESPONSE,None,,,,,,973415,001,2023-07-13_11h06.23.371,PsychoPy-Practice-Task,2022.2.5,59.97056919812276,
,,,,1,0,1,0,,,,,6,0,6,0,,,,,,2,,,,Block1_run1_scene_recog-TEST/yf9_w_hills14_NEW.bmp,1,,,,,,,169.01528833300108,,,,,175.10125450001215,175.10125450001215,176.07982879201882,176.11404054201557,177.11129129200708,,NEW,NONE,NO RESPONSE,None,,,,,,973415,001,2023-07-13_11h06.23.371,PsychoPy-Practice-Task,2022.2.5,59.97056919812276,
,,,,1,0,1,0,,,,,7,0,7,0,,,,,,2,,,,Block1_run1_scene_recog-TEST/yf9_w_beach4_NEW.bmp,1,,,,,,,171.9989317499858,,,,,178.10124670900404,178.10124670900404,179.07395550000365,179.10762020901893,180.11056308401749,181.08054866699968,NEW,NONE,NO RESPONSE,None,,,,,,973415,001,2023-07-13_11h06.23.371,PsychoPy-Practice-Task,2022.2.5,59.97056919812276,
,,,,1,0,1,0,,,,,8,0,8,0,,,,,,2,,,,Block1_run1_scene_recog-TEST/yf9_mtns17_OLD.bmp,1,,,,,,,175.0002631660027,,,,,181.08054866699968,181.08054866699968,182.07563016700442,182.0914536670025,183.09415499999886,184.08356025000103,OLD,NONE,NO RESPONSE,None,,,,,,973415,001,2023-07-13_11h06.23.371,PsychoPy-Practice-Task,2022.2.5,59.97056919812276,
,,,,1,0,1,0,,,,,9,0,9,0,,,,,,2,,,,Block1_run1_scene_recog-TEST/yf9_ralphunden_hills24_OLD.bmp,1,,,,,,,177.9987374159973,,,,,184.08356025000103,184.08356025000103,185.0743805420061,185.09177612501662,186.09453491700697,187.08393591700587,OLD,NONE,NO RESPONSE,None,,,,,,973415,001,2023-07-13_11h06.23.371,PsychoPy-Practice-Task,2022.2.5,59.97056919812276,
,,,,1,0,1,0,,,,,10,0,10,0,,,,,,2,,,,Block1_run1_scene_recog-TEST/yf9_w_citybeach12_NEW.bmp,1,,,,,,,181.00030070799403,,,,,187.08393591700587,187.08393591700587,188.07405220900546,188.09092729201075,189.09389812502195,190.08378558402183,NEW,NONE,NO RESPONSE,None,,,,,,973415,001,2023-07-13_11h06.23.371,PsychoPy-Practice-Task,2022.2.5,59.97056919812276,
,,,,1,0,1,0,,,,,11,0,11,0,,,,,,2,,,,Block1_run1_scene_recog-TEST/yf9_mtns18_NEW.bmp,1,,,,,,,183.99898008297896,,,,,190.08378558402183,190.08378558402183,191.0740204169997,191.09081358401454,192.09347645900561,193.0844034590118,NEW,NONE,NO RESPONSE,None,,,,,,973415,001,2023-07-13_11h06.23.371,PsychoPy-Practice-Task,2022.2.5,59.97056919812276,
,,,,1,0,1,0,,,,,,,,,,,,,,,,,,,,,,,,,,,,,,,,,,,,,,,,,,,,,,973415,001,2023-07-13_11h06.23.371,PsychoPy-Practice-Task,2022.2.5,59.97056919812276,
,,,,2,0,2,0,0,0,0,0,,,,,,,,,184.00030541600427,2,193.0844034590118,,,Block1_run1_combo_encoding-TEST/of15_w_beach5b4_OLD.bmp,1,203.0981036669982,203.0981036669982,204.07333370900596,204.10702620900702,205.1103587920079,206.08325200001127,196.99971191599616,,,,None,,,,,,,,,,,,,,,none,973415,001,2023-07-13_11h06.23.371,PsychoPy-Practice-Task,2022.2.5,59.97056919812276,
,,,,2,0,2,0,1,0,1,0,,,,,,,,,,2,,,,Block1_run1_combo_encoding-TEST/om2_w_beach5b4_OLD.bmp,1,206.08325200001127,206.08325200001127,207.07591200000024,207.09147645899793,208.09373704201425,209.0837362090242,199.99988449999364,,,,None,,,,,,,,,,,,,,,none,973415,001,2023-07-13_11h06.23.371,PsychoPy-Practice-Task,2022.2.5,59.97056919812276,
,,,,2,0,2,0,2,0,2,0,,,,,,,,,,2,,,,Block1_run1_combo_encoding-TEST/yf7_mtns10b1_OLD.bmp,1,209.0837362090242,209.0837362090242,210.07298479200108,210.0908846250095,211.09303154199733,212.08476704201894,202.999930416001,,,,None,,,,,,,,,,,,,,,none,973415,001,2023-07-13_11h06.23.371,PsychoPy-Practice-Task,2022.2.5,59.97056919812276,
,,,,2,0,2,0,3,0,3,0,,,,,,,,,,2,,,,Block1_run1_combo_encoding-TEST/yf5_w_hills6_OLD.bmp,1,212.08476704201894,212.08476704201894,213.0738479590218,213.09071987500647,214.09383570900536,215.08438066701638,205.99967733299127,,,,None,,,,,,,,,,,,,,,none,973415,001,2023-07-13_11h06.23.371,PsychoPy-Practice-Task,2022.2.5,59.97056919812276,
,,,,2,0,2,0,4,0,4,0,,,,,,,,,,2,,,,Block1_run1_combo_encoding-TEST/om25_Shkumbin_hills21_OLD.bmp,1,215.08438066701638,215.08438066701638,216.07400337501895,216.09084383401205,217.09325145900948,218.08595166701707,208.9995925409894,,,,None,,,,,,,,,,,,,,,none,973415,001,2023-07-13_11h06.23.371,PsychoPy-Practice-Task,2022.2.5,59.97056919812276,
,,,,2,0,2,0,5,0,5,0,,,,,,,,,,2,,,,Block1_run1_combo_encoding-TEST/om2_mtns10b1_OLD.bmp,1,218.08595166701707,218.08595166701707,219.07663737502298,219.09305283401045,220.093156500021,221.0864661670057,212.00015733297914,,,,None,,,,,,,,,,,,,,,none,973415,001,2023-07-13_11h06.23.371,PsychoPy-Practice-Task,2022.2.5,59.97056919812276,
,,,,2,0,2,0,6,0,6,0,,,,,,,,,,2,,,,Block1_run1_combo_encoding-TEST/of18_w_beach16_OLD.bmp,1,221.0864661670057,221.0864661670057,222.07411358400714,222.09094137500506,223.09310895900126,224.08445966700674,214.99975729099242,,,,None,,,,,,,,,,,,,,,none,973415,001,2023-07-13_11h06.23.371,PsychoPy-Practice-Task,2022.2.5,59.97056919812276,
,,,,2,0,2,0,7,0,7,0,,,,,,,,,,2,,,,Block1_run1_combo_encoding-TEST/ym29_mtns8_OLD.bmp,1,224.08445966700674,224.08445966700674,225.07412850001128,225.08933908402105,226.09394404201885,,218.01105324999662,,,,None,,,,,,,,,,,,,,,none,973415,001,2023-07-13_11h06.23.371,PsychoPy-Practice-Task,2022.2.5,59.97056919812276,
,,,,2,0,2,0,8,0,8,0,,,,,,,,,,2,,,,Block1_run1_combo_encoding-TEST/yf20_w_rocks_OLD.bmp,1,227.0887863750104,227.0887863750104,228.07542416700744,228.0906616669963,229.09383737499593,230.08079579201876,220.99840591600514,,,,None,,,,,,,,,,,,,,,none,973415,001,2023-07-13_11h06.23.371,PsychoPy-Practice-Task,2022.2.5,59.97056919812276,
,,,,2,0,2,0,9,0,9,0,,,,,,,,,,2,,,,Block1_run1_combo_encoding-TEST/of15_w_sunset3b4_OLD.bmp,1,230.08079579201876,230.08079579201876,231.0756598340231,231.09170650001033,232.09376920902287,233.08517212502193,223.999915124994,,,,None,,,,,,,,,,,,,,,none,973415,001,2023-07-13_11h06.23.371,PsychoPy-Practice-Task,2022.2.5,59.97056919812276,
,,,,2,0,2,0,10,0,10,0,,,,,,,,,,2,,,,Block1_run1_combo_encoding-TEST/ym18_hill18b1_OLD.bmp,1,233.08517212502193,233.08517212502193,234.07536516702385,234.09095179202268,235.09369995901943,236.08439324999927,227.00021587498486,,,,None,,,,,,,,,,,,,,,none,973415,001,2023-07-13_11h06.23.371,PsychoPy-Practice-Task,2022.2.5,59.97056919812276,
,,,,2,0,2,0,11,0,11,0,,,,,,,,,,2,,,,Block1_run1_combo_encoding-TEST/yf20_w_sunset3_OLD.bmp,1,236.08439324999927,236.08439324999927,237.0741597500164,237.0907547090028,238.09379716700641,239.0870680840162,229.99960199999623,,,,None,,,,,,,,,,,,,,,none,973415,001,2023-07-13_11h06.23.371,PsychoPy-Practice-Task,2022.2.5,59.97056919812276,
,,,,2,0,2,0,,,,,0,0,0,0,,,,,230.00053445799858,2,239.0870680840162,,,Block1_run1_combo_recog-TEST/ym21_w_sunset3b4_NEW.bmp,1,,,,,,,242.9995900829963,,,,,249.10261533400626,249.10261533400626,250.07468391701696,250.10690466701635,251.1104030420247,252.08470270902035,NEW,NONE,NO RESPONSE,None,,,,,,973415,001,2023-07-13_11h06.23.371,PsychoPy-Practice-Task,2022.2.5,59.97056919812276,
,,,,2,0,2,0,,,,,1,0,1,0,,,,,,2,,,,Block1_run1_combo_recog-TEST/ym21_sunset2b1_NEW.bmp,1,,,,,,,245.9994469579833,,,,,252.08470270902035,252.08470270902035,253.0742774590035,253.09047525000642,254.09358245899784,255.0857160000014,NEW,NONE,NO RESPONSE,None,,,,,,973415,001,2023-07-13_11h06.23.371,PsychoPy-Practice-Task,2022.2.5,59.97056919812276,
,,,,2,0,2,0,,,,,2,0,2,0,,,,,,2,,,,Block1_run1_combo_recog-TEST/of15_w_sunset3b4_OLD.bmp,1,,,,,,,248.9996953329828,,,,,255.0857160000014,255.0857160000014,256.07380337500945,256.09197908401256,257.0936967090238,258.08512504200917,OLD,NONE,NO RESPONSE,None,,,,,,973415,001,2023-07-13_11h06.23.371,PsychoPy-Practice-Task,2022.2.5,59.97056919812276,
,,,,2,0,2,0,,,,,3,0,3,0,,,,,,2,,,,Block1_run1_combo_recog-TEST/ym18_w_hills9b2_NEW.bmp,1,,,,,,,251.9998493329913,,,,,258.08512504200917,258.08512504200917,259.07406287500635,259.0902797090239,260.0937000840204,261.0848893340153,NEW,NONE,NO RESPONSE,None,,,,,,973415,001,2023-07-13_11h06.23.371,PsychoPy-Practice-Task,2022.2.5,59.97056919812276,
,,,,2,0,2,0,,,,,4,0,4,0,,,,,,2,,,,Block1_run1_combo_recog-TEST/om34_street5_NEW.bmp,1,,,,,,,254.99996695798473,,,,,261.0848893340153,261.0848893340153,262.0740192500234,262.09059575002175,263.0936344170186,264.08281945899944,NEW,NONE,NO RESPONSE,None,,,,,,973415,001,2023-07-13_11h06.23.371,PsychoPy-Practice-Task,2022.2.5,59.97056919812276,
,,,,2,0,2,0,,,,,5,0,5,0,,,,,,2,,,,Block1_run1_combo_recog-TEST/om4_hills15_NEW.bmp,1,,,,,,,257.999600457988,,,,,264.08281945899944,264.08281945899944,265.07388412501314,265.09030000001076,266.09400808400824,267.08426529201097,NEW,NONE,NO RESPONSE,None,,,,,,973415,001,2023-07-13_11h06.23.371,PsychoPy-Practice-Task,2022.2.5,59.97056919812276,
,,,,2,0,2,0,,,,,6,0,6,0,,,,,,2,,,,Block1_run1_combo_recog-TEST/yf7_mtns10b1_OLD.bmp,1,,,,,,,260.9997992499848,,,,,267.08426529201097,267.08426529201097,268.0741261250223,268.0903492500074,269.0936586250027,270.0843107920082,OLD,NONE,NO RESPONSE,None,,,,,,973415,001,2023-07-13_11h06.23.371,PsychoPy-Practice-Task,2022.2.5,59.97056919812276,
,,,,2,0,2,0,,,,,7,0,7,0,,,,,,2,,,,Block1_run1_combo_recog-TEST/of18_w_beach16_OLD.bmp,1,,,,,,,263.9997392499936,,,,,270.0843107920082,270.0843107920082,271.0740064170095,271.09024175000377,272.0936781250057,273.08467854201444,OLD,NONE,NO RESPONSE,None,,,,,,973415,001,2023-07-13_11h06.23.371,PsychoPy-Practice-Task,2022.2.5,59.97056919812276,
,,,,2,0,2,0,,,,,8,0,8,0,,,,,,2,,,,Block1_run1_combo_recog-TEST/yf5_w_hills6_OLD.bmp,1,,,,,,,266.99956995798857,,,,,273.08467854201444,273.08467854201444,274.0741788340092,274.0909021249972,275.093507417012,276.0840482500207,OLD,NONE,NO RESPONSE,None,,,,,,973415,001,2023-07-13_11h06.23.371,PsychoPy-Practice-Task,2022.2.5,59.97056919812276,
,,,,2,0,2,0,,,,,9,0,9,0,,,,,,2,,,,Block1_run1_combo_recog-TEST/ym29_mtns8_OLD.bmp,1,,,,,,,269.9984744999965,,,,,276.0840482500207,276.0840482500207,277.0740680840099,277.0906469170004,278.0935332500085,279.0786582090077,OLD,NONE,NO RESPONSE,None,,,,,,973415,001,2023-07-13_11h06.23.371,PsychoPy-Practice-Task,2022.2.5,59.97056919812276,
,,,,2,0,2,0,,,,,10,0,10,0,,,,,,2,,,,Block1_run1_combo_recog-TEST/of15_w_beach5b4_OLD.bmp,1,,,,,,,272.9997710000025,,,,,279.0786582090077,279.0786582090077,280.0737072920019,280.08984150001197,281.0937311250018,282.08446600000025,OLD,NONE,NO RESPONSE,None,,,,,,973415,001,2023-07-13_11h06.23.371,PsychoPy-Practice-Task,2022.2.5,59.97056919812276,
,,,,2,0,2,0,,,,,11,0,11,0,,,,,,2,,,,Block1_run1_combo_recog-TEST/om37_w_hills8_NEW.bmp,1,,,,,,,275.99958854098804,,,,,282.08446600000025,282.08446600000025,283.07384275001823,283.090025625017,284.0936230420193,285.076924959023,NEW,NONE,NO RESPONSE,None,,,,,,973415,001,2023-07-13_11h06.23.371,PsychoPy-Practice-Task,2022.2.5,59.97056919812276,
,,,,2,0,2,0,,,,,,,,,,,,,,,,,,,,,,,,,,,,,,,,,,,,,,,,,,,,,,973415,001,2023-07-13_11h06.23.371,PsychoPy-Practice-Task,2022.2.5,59.97056919812276,
